BYTEORDER I
LAYOUT BIL
NROWS 5
NCOLS 510
NBANDS 318
NBITS 16
BANDROWBYTES 1020
TOTALROWBYTES 324360
BANDGAPBYTES 0
CHROMATICCORRECTION True
STARTWAVELENGTH 901.465
ENDWAVELENGTH 1690.67
INTEGRATIONTIME 100000
GAIN 0
WAVELENGTHS
901.47
903.97
906.47
908.96
911.46
913.96
916.46
918.96
921.46
923.96
926.45
928.95
931.45
933.95
936.45
938.95
941.44
943.94
946.44
948.94
951.44
953.94
956.44
958.93
961.43
963.93
966.43
968.93
971.43
973.92
976.42
978.92
981.42
983.92
986.42
988.92
991.41
993.91
996.41
998.91
1001.41
1003.91
1006.41
1008.90
1011.40
1013.90
1016.40
1018.90
1021.40
1023.89
1026.39
1028.89
1031.39
1033.89
1036.39
1038.89
1041.38
1043.88
1046.38
1048.89
1051.40
1053.91
1056.43
1058.94
1061.46
1063.97
1066.48
1069.00
1071.51
1074.02
1076.54
1079.05
1081.56
1084.08
1086.59
1089.10
1091.62
1094.13
1096.65
1099.16
1101.67
1104.19
1106.70
1109.21
1111.73
1114.24
1116.75
1119.27
1121.78
1124.29
1126.81
1129.32
1131.84
1134.35
1136.86
1139.38
1141.89
1144.40
1146.92
1149.42
1151.89
1154.37
1156.84
1159.31
1161.78
1164.26
1166.73
1169.20
1171.68
1174.15
1176.62
1179.09
1181.57
1184.04
1186.51
1188.98
1191.46
1193.93
1196.40
1198.88
1201.35
1203.82
1206.29
1208.77
1211.24
1213.71
1216.18
1218.66
1221.13
1223.60
1226.08
1228.55
1231.02
1233.49
1235.97
1238.44
1240.91
1243.38
1245.89
1248.41
1250.94
1253.46
1255.98
1258.50
1261.02
1263.55
1266.07
1268.59
1271.11
1273.63
1276.16
1278.68
1281.20
1283.72
1286.24
1288.77
1291.29
1293.81
1296.32
1298.81
1301.30
1303.78
1306.27
1308.76
1311.24
1313.73
1316.21
1318.70
1321.19
1323.67
1326.16
1328.65
1331.13
1333.62
1336.11
1338.59
1341.08
1343.56
1346.05
1348.54
1351.03
1353.55
1356.07
1358.58
1361.10
1363.62
1366.14
1368.65
1371.17
1373.68
1376.19
1378.70
1381.20
1383.71
1386.22
1388.72
1391.23
1393.74
1396.24
1398.75
1401.26
1403.76
1406.27
1408.78
1411.26
1413.73
1416.20
1418.68
1421.15
1423.62
1426.09
1428.57
1431.04
1433.51
1435.98
1438.46
1440.93
1443.40
1445.88
1448.35
1450.82
1453.29
1455.77
1458.24
1460.71
1463.18
1465.66
1468.13
1470.60
1473.08
1475.55
1478.02
1480.49
1482.97
1485.44
1487.91
1490.38
1492.86
1495.33
1497.80
1500.28
1502.75
1505.22
1507.69
1510.17
1512.64
1515.11
1517.58
1520.06
1522.53
1525.00
1527.47
1529.95
1532.42
1534.89
1537.37
1539.84
1542.31
1544.78
1547.26
1549.73
1552.20
1554.67
1557.15
1559.62
1562.09
1564.57
1567.04
1569.51
1571.98
1574.46
1576.93
1579.40
1581.88
1584.35
1586.82
1589.29
1591.77
1594.24
1596.71
1599.18
1601.66
1604.13
1606.60
1609.07
1611.55
1614.02
1616.49
1618.97
1621.44
1623.91
1626.38
1628.86
1631.33
1633.80
1636.27
1638.75
1641.22
1643.69
1646.17
1648.64
1651.11
1653.58
1656.06
1658.53
1661.00
1663.47
1665.95
1668.42
1670.89
1673.37
1675.84
1678.31
1680.78
1683.26
1685.73
1688.20
1690.67
WAVELENGTHS_END
